Folder: Projects/WIPRO Turbo Internship/Datasets/Spices (part 3)

File: ChillyPowderColumn 1_064091_20160418_164753.csv
Method:,Column 1,,
Host Date-Time:,18/4/16 @ 16:47:53,,
Header Version:,1,,
System Temp hundredths:,3279,,
Detector Temp hundredths:,3055,,
Humidity hundredths:,1331,,
Lamp PD:,3768,,
Shift Vector Coefficients:,-4.47974,0.0448891,-0.000109265,,
Pixel to Wavelength Coefficients:,1792.1,-0.928226,-0.000229463,,
Serial Number:,5490239,,
Scan Config Name:,Column 1,,
Scan Config Type:,2,,
Start wavelength in nm:,900,,
End wavelength in nm:,1700,,
Pattern Pixel Width:,6,,
Number of Measurement points:,228,,
Num Repeats:,6,,
PGA Gain:,64,,
Total Measurement Time (s):,2,,
Wavelength (nm),Absorbance (AU),Reference Signal (unitless),Sample Signal (unitless)
900.723,0.344622,64701,29261
905.903,0.264283,80807,43971
909.784,0.218973,90252,54511
913.66,0.187146,98832,64232
917.533,0.176854,108214,72016
921.401,0.177074,120081,79873
925.265,0.181517,134618,88631
929.125,0.188429,152080,98547
932.981,0.190645,171754,110729
936.833,0.186488,192235,125125
941.962,0.171982,218303,146919
945.804,0.160415,236285,163313
949.642,0.148290,252581,179519
953.475,0.140264,268843,194641
957.305,0.132784,284409,209488
961.131,0.128753,300415,223341
964.952,0.125333,315812,236644
968.769,0.123474,331706,249620
972.582,0.121585,347597,262719
976.391,0.118922,362603,275746
981.464,0.116632,381663,291775
985.263,0.114824,394207,302622
989.058,0.112198,405268,313000
992.849,0.110950,414919,321376
996.636,0.108516,422744,329277
1000.42,0.106129,429985,336763
1004.2,0.103942,435731,342986
1007.97,0.101576,439787,348070
1011.74,0.099938,442999,351937
1016.76,0.097617,446147,356337
1020.52,0.095740,447570,359022
1024.28,0.094731,448137,360313
1028.03,0.093206,447447,361024
1031.78,0.092226,447066,361531
1035.53,0.091496,446139,361388
1039.27,0.090760,445335,361349
1043,0.088807,443993,361884
1046.73,0.088086,441985,360846
1050.46,0.087673,439703,359324
1055.43,0.087156,438747,358970
1059.14,0.087052,437920,358379
1062.86,0.087583,436828,357049
1066.57,0.087448,436218,356661
1070.27,0.087734,437019,357081
1073.98,0.087506,437923,358007
1077.67,0.088477,438436,357626
1081.37,0.087847,439593,359090
1085.06,0.087965,441201,360306
1089.97,0.088615,442941,361186
1093.65,0.087661,445537,364102
1097.32,0.087556,448116,366298
1100.99,0.087696,449422,367247
1104.66,0.087694,451109,368627
1108.32,0.087392,453992,371241
1111.98,0.087361,457203,373894
1115.64,0.087119,459746,376183
1119.29,0.087228,461686,377675
1124.15,0.087297,463762,379313
1127.79,0.087196,465594,380900
1131.43,0.087674,467340,381908
1135.06,0.088459,468769,382384
1138.69,0.089591,470277,382616
1142.31,0.092065,471885,381743
1145.93,0.093931,474025,381830
1149.55,0.096466,475849,381069
1153.16,0.099643,477793,379837
1156.77,0.103018,479500,378243
1161.58,0.108129,482364,376050
1165.17,0.111891,485131,374945
1168.77,0.116186,488511,373842
1172.36,0.119794,491250,372828
1175.94,0.123603,494537,372045
1179.53,0.126036,498615,373018
1183.1,0.129485,504468,374411
1186.68,0.133711,510422,375162
1190.25,0.138110,516637,375903
1195,0.144024,526142,377641
1198.56,0.148172,533671,379404
1202.11,0.151326,540939,381788
1205.67,0.155185,548916,383991
1209.21,0.158435,558110,387512
1212.76,0.161388,566953,390984
1216.3,0.162566,575650,395906
1219.83,0.161706,584869,403044
1223.36,0.159521,595021,412108
1226.89,0.155696,604954,422694
1231.58,0.147999,617050,438855
1235.1,0.142422,626559,451378
1238.61,0.137134,636932,464472
1242.12,0.132921,647247,476594
1245.63,0.128874,655372,487095
1249.13,0.126206,664642,497029
1252.63,0.123018,674555,508159
1256.12,0.121115,684692,518060
1259.61,0.119269,692978,526563
1264.25,0.118023,706063,538047
1267.73,0.116650,716021,547364
1271.2,0.115883,725552,555630
1274.67,0.114088,734127,564525
1278.14,0.112683,742906,573127
1281.6,0.111383,750480,580706
1285.06,0.110713,757621,587136
1288.51,0.109551,764167,593796
1291.96,0.108205,771928,601689
1296.56,0.106711,779372,609585
1300,0.106345,783046,612975
1303.43,0.105003,787236,618161
1306.86,0.104168,792393,623409
1310.29,0.103848,796376,627004
1313.72,0.103992,798307,628316
1317.13,0.103682,801175,631023
1320.55,0.103588,804861,634063
1323.96,0.103813,807833,636076
1327.37,0.104790,809608,636041
1331.9,0.105862,811327,635819
1335.3,0.106944,812775,635369
1338.69,0.108437,813544,633788
1342.08,0.110160,812602,630548
1345.47,0.111990,811826,627296
1348.85,0.114388,811585,623658
1352.23,0.116233,810158,619922
1355.6,0.118500,807876,614957
1358.97,0.121379,805252,608909
1363.45,0.126263,804229,601336
1366.81,0.129503,803029,595975
1370.17,0.133011,801212,589843
1373.52,0.136516,799981,584203
1376.86,0.140158,798624,578341
1380.2,0.143913,795747,571297
1383.54,0.147190,792504,564692
1386.88,0.151570,790222,557416
1390.21,0.156957,788607,549419
1393.53,0.163025,785518,539674
1397.96,0.170617,779920,526542
1401.28,0.177212,776342,516228
1404.59,0.183990,773563,506414
1407.9,0.191911,769684,494768
1411.2,0.200941,765635,482038
1414.5,0.211509,762767,468687
1417.8,0.222043,760810,456282
1421.09,0.232560,758503,444015
1424.37,0.242947,755935,432053
1428.75,0.257215,753840,416931
1432.03,0.266241,752941,407868
1435.3,0.274748,751451,399165
1438.57,0.281230,750582,392797
1441.84,0.286987,749740,387190
1445.1,0.292274,748245,381742
1448.35,0.296540,747231,377498
1451.61,0.299634,746115,374259
1454.85,0.301425,743794,371559
1459.18,0.303410,741747,368847
1462.42,0.304236,739561,367061
1465.65,0.305097,736862,364997
1468.88,0.305771,734038,363034
1472.11,0.306104,730885,361198
1475.33,0.306227,727271,359310
1478.55,0.305430,723938,358320
1481.77,0.304223,721040,357879
1484.98,0.304309,717684,356143
1488.18,0.303401,713601,354858
1492.45,0.302529,708541,353050
1495.65,0.300981,704632,352356
1498.84,0.299245,700712,351799
1502.03,0.297683,695967,350676
1505.21,0.296118,691038,349449
1508.39,0.295069,686052,347767
1511.57,0.293685,680877,346245
1514.74,0.291142,675427,345491
1517.91,0.289180,670152,344345
1522.12,0.286681,662097,342169
1525.28,0.285203,656403,340383
1528.43,0.283766,650810,338601
1531.58,0.282725,644842,336301
1534.73,0.281168,638224,334045
1537.87,0.278902,631155,332073
1541.01,0.277842,625001,329639
1544.14,0.276010,618097,327376
1547.27,0.274874,610689,324299
1550.39,0.274051,602954,320799
1554.55,0.272254,592300,316437
1557.67,0.271519,584592,312848
1560.78,0.268998,576368,310243
1563.89,0.268021,568025,306441
1566.99,0.266646,559352,302719
1570.09,0.266736,550305,297761
1573.18,0.266513,541598,293200
1576.27,0.265902,532727,288804
1579.36,0.264708,523890,284795
1583.47,0.262231,510646,279183
1586.54,0.260994,501212,274807
1589.62,0.260043,492392,270563
1592.68,0.259420,482586,265555
1595.75,0.257909,472996,261185
1598.81,0.256507,462978,256480
1601.86,0.254679,453381,252223
1604.92,0.251676,443779,248594
1607.96,0.249485,433789,244227
1612.02,0.246950,420216,237970
1615.06,0.245975,409971,232690
1618.09,0.244189,400631,228326
1621.12,0.242128,390490,223605
1624.15,0.239929,380379,218921
1627.17,0.238265,370204,213883
1630.19,0.236894,360433,208896
1633.2,0.234265,350418,204325
1636.21,0.232975,340597,199189
1639.21,0.232695,330782,193574
1643.21,0.231685,317788,186403
1646.21,0.231288,307687,180643
1649.2,0.228512,297078,175533
1652.19,0.225598,287199,170838
1655.17,0.222777,276866,165765
1658.15,0.220643,265166,159542
1661.12,0.218654,252362,152535
1664.1,0.212829,238503,146105
1667.06,0.206425,222332,138222
1671.01,0.192113,197141,126667
1673.97,0.178455,175847,116595
1676.92,0.161417,154167,106310
1679.87,0.147945,132946,94565
1682.81,0.138167,113053,82246
1685.75,0.133423,95698,70385
1688.69,0.127754,80645,60093
1691.62,0.134165,68011,49936
1694.55,0.142315,57785,41639
1697.47,0.150697,49231,34797
1701.36,0.174894,40194,26870