Folder: Projects/WIPRO Turbo Internship/Datasets/Spices (part 2)

File: ChillyPowderColumn 1_064088_20160418_164734.csv
Method:,Column 1,,
Host Date-Time:,18/4/16 @ 16:47:34,,
Header Version:,1,,
System Temp hundredths:,3269,,
Detector Temp hundredths:,3053,,
Humidity hundredths:,1341,,
Lamp PD:,3768,,
Shift Vector Coefficients:,-4.47974,0.0448891,-0.000109265,,
Pixel to Wavelength Coefficients:,1792.1,-0.928226,-0.000229463,,
Serial Number:,5490239,,
Scan Config Name:,Column 1,,
Scan Config Type:,2,,
Start wavelength in nm:,900,,
End wavelength in nm:,1700,,
Pattern Pixel Width:,6,,
Number of Measurement points:,228,,
Num Repeats:,6,,
PGA Gain:,64,,
Total Measurement Time (s):,2,,
Wavelength (nm),Absorbance (AU),Reference Signal (unitless),Sample Signal (unitless)
900.723,0.351941,64701,28772
905.903,0.273274,80807,43070
909.784,0.222685,90252,54047
913.66,0.195605,98832,62993
917.533,0.181730,108214,71212
921.401,0.183340,120081,78729
925.265,0.189299,134618,87057
929.125,0.193888,152080,97316
932.981,0.195810,171754,109420
936.833,0.191948,192235,123562
941.962,0.176024,218303,145558
945.804,0.164957,236285,161614
949.642,0.152718,252581,177698
953.475,0.143438,268843,193224
957.305,0.137776,284409,207094
961.131,0.132715,300415,221313
964.952,0.129201,315812,234546
968.769,0.127087,331706,247552
972.582,0.125912,347597,260114
976.391,0.124003,362603,272539
981.464,0.121432,381663,288568
985.263,0.119548,394207,299348
989.058,0.117723,405268,309043
992.849,0.115952,414919,317696
996.636,0.113310,422744,325662
1000.42,0.110595,429985,333318
1004.2,0.108592,435731,339333
1007.97,0.106985,439787,343762
1011.74,0.104378,442999,348357
1016.76,0.101919,446147,352825
1020.52,0.101270,447570,354479
1024.28,0.099487,448137,356389
1028.03,0.097757,447447,357260
1031.78,0.097073,447066,357519
1035.53,0.095870,446139,357767
1039.27,0.094685,445335,358098
1043,0.093719,443993,357814
1046.73,0.092678,441985,357050
1050.46,0.091541,439703,356138
1055.43,0.091637,438747,355285
1059.14,0.091020,437920,355120
1062.86,0.091946,436828,353480
1066.57,0.091830,436218,353080
1070.27,0.091885,437019,353684
1073.98,0.092130,437923,354216
1077.67,0.091951,438436,354777
1081.37,0.092429,439593,355322
1085.06,0.092883,441201,356249
1089.97,0.092564,442941,357917
1093.65,0.092642,445537,359950
1097.32,0.092405,448116,362231
1100.99,0.091716,449422,363863
1104.66,0.091675,451109,365264
1108.32,0.091648,453992,367621
1111.98,0.091242,457203,370567
1115.64,0.090566,459746,373209
1119.29,0.091003,461686,374407
1124.15,0.091120,463762,375989
1127.79,0.090392,465594,378108
1131.43,0.091377,467340,378666
1135.06,0.091992,468769,379286
1138.69,0.092744,470277,379848
1142.31,0.095025,471885,379150
1145.93,0.097412,474025,378782
1149.55,0.099987,475849,377992
1153.16,0.103516,477793,376464
1156.77,0.106686,479500,375062
1161.58,0.112152,482364,372583
1165.17,0.115217,485131,372085
1168.77,0.119733,488511,370801
1172.36,0.123288,491250,369841
1175.94,0.126890,494537,369240
1179.53,0.129693,498615,369890
1183.1,0.132874,504468,371501
1186.68,0.137105,510422,372241
1190.25,0.141607,516637,372888
1195,0.147088,526142,374986
1198.56,0.151492,533671,376514
1202.11,0.155048,540939,378530
1205.67,0.158611,548916,380974
1209.21,0.161452,558110,384829
1212.76,0.164806,566953,387919
1216.3,0.165353,575650,393374
1219.83,0.164955,584869,400040
1223.36,0.162451,595021,409337
1226.89,0.157984,604954,420473
1231.58,0.150526,617050,436309
1235.1,0.145250,626559,448448
1238.61,0.139658,636932,461780
1242.12,0.135789,647247,473458
1245.63,0.132170,655372,483412
1249.13,0.128892,664642,493965
1252.63,0.126154,674555,504503
1256.12,0.124622,684692,513894
1259.61,0.122342,692978,522850
1264.25,0.120861,706063,534543
1267.73,0.120025,716021,543126
1271.2,0.119172,725552,551438
1274.67,0.117552,734127,560040
1278.14,0.116175,742906,568537
1281.6,0.115489,750480,575241
1285.06,0.114392,757621,582184
1288.51,0.113104,764167,588958
1291.96,0.112076,771928,596350
1296.56,0.111298,779372,603180
1300,0.110474,783046,607174
1303.43,0.109310,787236,612062
1306.86,0.109050,792393,616440
1310.29,0.108640,796376,620123
1313.72,0.108133,798307,622353
1317.13,0.107905,801175,624917
1320.55,0.108512,804861,626916
1323.96,0.108749,807833,628887
1327.37,0.109483,809608,629205
1331.9,0.110502,811327,629062
1335.3,0.111781,812775,628332
1338.69,0.113059,813544,627078
1342.08,0.114300,812602,624565
1345.47,0.116205,811826,621238
1348.85,0.118237,811585,618155
1352.23,0.120644,810158,613657
1355.6,0.123030,807876,608576
1358.97,0.125133,805252,603669
1363.45,0.129448,804229,596941
1366.81,0.133062,803029,591111
1370.17,0.136553,801212,585052
1373.52,0.139842,799981,579746
1376.86,0.143188,798624,574321
1380.2,0.146786,795747,567530
1383.54,0.151185,792504,559521
1386.88,0.155304,790222,552643
1390.21,0.160447,788607,545021
1393.53,0.166104,785518,535861
1397.96,0.174697,779920,521619
1401.28,0.181160,776342,511556
1404.59,0.188162,773563,501572
1407.9,0.195936,769684,490203
1411.2,0.205289,765635,477235
1414.5,0.215791,762767,464089
1417.8,0.227110,760810,450989
1421.09,0.237451,758503,439042
1424.37,0.247909,755935,427145
1428.75,0.261732,753840,412617
1432.03,0.270981,752941,403441
1435.3,0.279909,751451,394450
1438.57,0.286874,750582,387725
1441.84,0.292640,749740,382182
1445.1,0.297908,748245,376822
1448.35,0.303399,747231,371583
1451.61,0.306208,746115,368636
1454.85,0.307300,743794,366566
1459.18,0.308631,741747,364439
1462.42,0.310704,739561,361635
1465.65,0.311399,736862,359739
1468.88,0.312506,734038,357448
1472.11,0.311697,730885,356576
1475.33,0.311229,727271,355195
1478.55,0.311660,723938,353217
1481.77,0.311803,721040,351687
1484.98,0.311535,717684,350266
1488.18,0.310141,713601,349393
1492.45,0.307489,708541,349041
1495.65,0.305706,704632,348543
1498.84,0.306141,700712,346257
1502.03,0.304731,695967,345031
1505.21,0.302762,691038,344144
1508.39,0.300745,686052,343251
1511.57,0.298275,680877,342605
1514.74,0.297051,675427,340822
1517.91,0.295625,670152,339272
1522.12,0.293700,662097,336683
1525.28,0.291693,656403,335334
1528.43,0.288599,650810,334854
1531.58,0.286463,644842,333419
1534.73,0.286001,638224,330348
1537.87,0.285651,631155,326953
1541.01,0.284804,625001,324397
1544.14,0.282811,618097,322289
1547.27,0.279880,610689,320583
1550.39,0.278132,602954,317799
1554.55,0.277390,592300,312717
1557.67,0.276733,584592,309115
1560.78,0.276115,576368,305200
1563.89,0.274064,568025,302206
1566.99,0.272034,559352,298986
1570.09,0.271172,550305,294735
1573.18,0.270495,541598,290524
1576.27,0.270813,532727,285556
1579.36,0.271451,523890,280407
1583.47,0.268843,510646,274965
1586.54,0.266886,501212,271104
1589.62,0.265388,492392,267253
1592.68,0.264263,482586,262610
1595.75,0.263477,472996,257858
1598.81,0.263110,462978,252610
1601.86,0.261656,453381,248203
1604.92,0.259078,443779,244393
1607.96,0.255977,433789,240603
1612.02,0.253635,420216,234335
1615.06,0.252139,409971,229411
1618.09,0.251801,400631,224359
1621.12,0.250437,390490,219368
1624.15,0.249596,380379,214102
1627.17,0.245684,370204,210260
1630.19,0.242886,360433,206034
1633.2,0.241401,350418,200995
1636.21,0.241427,340597,195350
1639.21,0.241463,330782,189705
1643.21,0.240706,317788,182571
1646.21,0.238950,307687,177484
1649.2,0.235956,297078,172550
1652.19,0.232667,287199,168080
1655.17,0.231125,276866,162609
1658.15,0.228765,265166,156586
1661.12,0.227150,252362,149580
1664.1,0.223161,238503,142670
1667.06,0.216916,222332,134923
1671.01,0.200432,197141,124264
1673.97,0.184528,175847,114976
1676.92,0.170612,154167,104083
1679.87,0.156886,132946,92638
1682.81,0.143133,113053,81311
1685.75,0.141978,95698,69012
1688.69,0.144710,80645,57792
1691.62,0.142755,68011,48958
1694.55,0.152477,57785,40676
1697.47,0.165977,49231,33594
1701.36,0.176091,40194,26796

File: ChillyPowderColumn 1_064089_20160418_164742.csv
Method:,Column 1,,
Host Date-Time:,18/4/16 @ 16:47:42,,
Header Version:,1,,
System Temp hundredths:,3273,,
Detector Temp hundredths:,3055,,
Humidity hundredths:,1341,,
Lamp PD:,3768,,
Shift Vector Coefficients:,-4.47974,0.0448891,-0.000109265,,
Pixel to Wavelength Coefficients:,1792.1,-0.928226,-0.000229463,,
Serial Number:,5490239,,
Scan Config Name:,Column 1,,
Scan Config Type:,2,,
Start wavelength in nm:,900,,
End wavelength in nm:,1700,,
Pattern Pixel Width:,6,,
Number of Measurement points:,228,,
Num Repeats:,6,,
PGA Gain:,64,,
Total Measurement Time (s):,2,,
Wavelength (nm),Absorbance (AU),Reference Signal (unitless),Sample Signal (unitless)
900.723,0.344652,64701,29259
905.903,0.271071,80807,43289
909.784,0.225353,90252,53716
913.66,0.190227,98832,63778
917.533,0.182237,108214,71129
921.401,0.181627,120081,79040
925.265,0.187651,134618,87388
929.125,0.191724,152080,97802
932.981,0.195306,171754,109547
936.833,0.188960,192235,124415
941.962,0.175406,218303,145765
945.804,0.162676,236285,162465
949.642,0.150658,252581,178543
953.475,0.141986,268843,193871
957.305,0.136112,284409,207889
961.131,0.130923,300415,222228
964.952,0.127283,315812,235584
968.769,0.125833,331706,248268
972.582,0.123759,347597,261407
976.391,0.122390,362603,273553
981.464,0.119297,381663,289990
985.263,0.117701,394207,300624
989.058,0.115303,405268,310770
992.849,0.113079,414919,319804
996.636,0.110532,422744,327752
1000.42,0.108820,429985,334683
1004.2,0.106560,435731,340925
1007.97,0.103919,439787,346197
1011.74,0.101889,442999,350359
1016.76,0.099650,446147,354673
1020.52,0.098615,447570,356653
1024.28,0.097137,448137,358322
1028.03,0.095357,447447,359240
1031.78,0.094913,447066,359301
1035.53,0.093467,446139,359752
1039.27,0.092594,445335,359826
1043,0.091380,443993,359746
1046.73,0.090384,441985,358941
1050.46,0.089568,439703,357760
1055.43,0.089677,438747,356892
1059.14,0.089602,437920,356281
1062.86,0.089555,436828,355431
1066.57,0.090135,436218,354461
1070.27,0.090656,437019,354686
1073.98,0.090569,437923,355491
1077.67,0.090900,438436,355636
1081.37,0.090884,439593,356588
1085.06,0.090591,441201,358134
1089.97,0.090803,442941,359371
1093.65,0.090420,445537,361796
1097.32,0.090777,448116,363591
1100.99,0.090373,449422,364990
1104.66,0.089464,451109,367128
1108.32,0.090256,453992,368801
1111.98,0.089567,457203,371999
1115.64,0.089823,459746,373848
1119.29,0.089314,461686,375866
1124.15,0.089254,463762,377608
1127.79,0.089564,465594,378829
1131.43,0.090315,467340,379593
1135.06,0.090733,468769,380387
1138.69,0.091984,470277,380513
1142.31,0.094198,471885,379873
1145.93,0.097286,474025,378892
1149.55,0.099211,475849,378668
1153.16,0.102776,477793,377106
1156.77,0.106219,479500,375465
1161.58,0.111700,482364,372971
1165.17,0.115654,485131,371711
1168.77,0.119928,488511,370635
1172.36,0.123204,491250,369912
1175.94,0.126635,494537,369457
1179.53,0.129827,498615,369776
1183.1,0.133659,504468,370830
1186.68,0.137935,510422,371530
1190.25,0.141835,516637,372692
1195,0.147932,526142,374258
1198.56,0.151835,533671,376217
1202.11,0.155704,540939,377959
1205.67,0.159370,548916,380308
1209.21,0.162512,558110,383891
1212.76,0.165283,566953,387493
1216.3,0.166238,575650,392573
1219.83,0.165345,584869,399681
1223.36,0.162620,595021,409178
1226.89,0.158429,604954,420043
1231.58,0.151411,617050,435421
1235.1,0.145430,626559,448262
1238.61,0.140314,636932,461083
1242.12,0.136162,647247,473051
1245.63,0.132521,655372,483022
1249.13,0.129201,664642,493613
1252.63,0.126552,674555,504040
1256.12,0.124845,684692,513630
1259.61,0.122342,692978,522851
1264.25,0.121222,706063,534099
1267.73,0.119858,716021,543335
1271.2,0.118933,725552,551741
1274.67,0.117403,734127,560233
1278.14,0.116151,742906,568568
1281.6,0.115220,750480,575598
1285.06,0.113889,757621,582858
1288.51,0.112615,764167,589622
1291.96,0.111419,771928,597252
1296.56,0.110384,779372,604451
1300,0.109110,783046,609084
1303.43,0.108537,787236,613152
1306.86,0.108144,792393,617727
1310.29,0.107344,796376,621977
1313.72,0.107320,798307,623520
1317.13,0.107101,801175,626075
1320.55,0.107163,804861,628865
1323.96,0.106811,807833,631699
1327.37,0.107744,809608,631729
1331.9,0.109231,811327,630906
1335.3,0.110384,812775,630357
1338.69,0.111601,813544,629188
1342.08,0.113065,812602,626344
1345.47,0.115104,811826,622815
1348.85,0.117409,811585,619334
1352.23,0.119403,810158,615413
1355.6,0.121537,807876,610672
1358.97,0.124539,805252,604495
1363.45,0.129463,804229,596921
1366.81,0.133019,803029,591170
1370.17,0.136141,801212,585607
1373.52,0.139675,799981,579969
1376.86,0.143719,798624,573619
1380.2,0.146994,795747,567258
1383.54,0.151099,792504,559632
1386.88,0.155092,790222,552914
1390.21,0.160057,788607,545511
1393.53,0.166186,785518,535760
1397.96,0.174271,779920,522131
1401.28,0.180239,776342,512642
1404.59,0.187349,773563,502512
1407.9,0.195453,769684,490749
1411.2,0.204366,765635,478251
1414.5,0.215293,762767,464621
1417.8,0.225411,760810,452757
1421.09,0.236590,758503,439914
1424.37,0.246568,755935,428466
1428.75,0.260620,753840,413675
1432.03,0.270457,752941,403928
1435.3,0.278431,751451,395794
1438.57,0.285683,750582,388790
1441.84,0.291939,749740,382800
1445.1,0.296813,748245,377773
1448.35,0.300949,747231,373685
1451.61,0.304647,746115,369963
1454.85,0.307080,743794,366752
1459.18,0.308668,741747,364408
1462.42,0.310261,739561,362004
1465.65,0.310709,736862,360311
1468.88,0.311254,734038,358480
1472.11,0.312186,730885,356175
1475.33,0.311223,727271,355200
1478.55,0.311142,723938,353638
1481.77,0.311451,721040,351972
1484.98,0.310244,717684,351309
1488.18,0.309183,713601,350165
1492.45,0.308202,708541,348468
1495.65,0.306979,704632,347523
1498.84,0.305408,700712,346842
1502.03,0.303695,695967,345855
1505.21,0.302502,691038,344350
1508.39,0.300614,686052,343355
1511.57,0.298891,680877,342119
1514.74,0.297714,675427,340302
1517.91,0.295700,670152,339214
1522.12,0.292948,662097,337267
1525.28,0.290866,656403,335973
1528.43,0.289415,650810,334225
1531.58,0.288436,644842,331908
1534.73,0.286927,638224,329645
1537.87,0.285292,631155,327223
1541.01,0.283761,625001,325177
1544.14,0.282596,618097,322449
1547.27,0.280695,610689,319982
1550.39,0.279864,602954,316534
1554.55,0.278107,592300,312201
1557.67,0.277281,584592,308725
1560.78,0.276026,576368,305263
1563.89,0.274021,568025,302236
1566.99,0.273186,559352,298194
1570.09,0.272741,550305,293672
1573.18,0.272581,541598,289132
1576.27,0.271224,532727,285286
1579.36,0.270594,523890,280961
1583.47,0.267901,510646,275562
1586.54,0.267761,501212,270558
1589.62,0.267224,492392,266126
1592.68,0.265657,482586,261769
1595.75,0.265019,472996,256944
1598.81,0.263356,462978,252467
1601.86,0.261097,453381,248523
1604.92,0.259414,443779,244204
1607.96,0.257371,433789,239832
1612.02,0.254684,420216,233770
1615.06,0.251511,409971,229743
1618.09,0.250641,400631,224959
1621.12,0.249476,390490,219854
1624.15,0.247722,380379,215028
1627.17,0.245653,370204,210275
1630.19,0.243613,360433,205689
1633.2,0.242448,350418,200511
1636.21,0.241639,340597,195255
1639.21,0.240204,330782,190256
1643.21,0.238497,317788,183502
1646.21,0.237670,307687,178008
1649.2,0.235241,297078,172834
1652.19,0.232845,287199,168011
1655.17,0.230850,276866,162712
1658.15,0.228718,265166,156603
1661.12,0.225195,252362,150255
1664.1,0.220814,238503,143443
1667.06,0.214717,222332,135608
1671.01,0.201047,197141,124088
1673.97,0.187819,175847,114108
1676.92,0.173841,154167,103312
1679.87,0.156900,132946,92635
1682.81,0.146936,113053,80602
1685.75,0.140916,95698,69181
1688.69,0.141819,80645,58178
1691.62,0.146220,68011,48569
1694.55,0.145876,57785,41299
1697.47,0.163515,49231,33785
1701.36,0.175201,40194,26851

File: ChillyPowderColumn 1_064090_20160418_164747.csv
Method:,Column 1,,
Host Date-Time:,18/4/16 @ 16:47:47,,
Header Version:,1,,
System Temp hundredths:,3274,,
Detector Temp hundredths:,3050,,
Humidity hundredths:,1331,,
Lamp PD:,3768,,
Shift Vector Coefficients:,-4.47974,0.0448891,-0.000109265,,
Pixel to Wavelength Coefficients:,1792.1,-0.928226,-0.000229463,,
Serial Number:,5490239,,
Scan Config Name:,Column 1,,
Scan Config Type:,2,,
Start wavelength in nm:,900,,
End wavelength in nm:,1700,,
Pattern Pixel Width:,6,,
Number of Measurement points:,228,,
Num Repeats:,6,,
PGA Gain:,64,,
Total Measurement Time (s):,2,,
Wavelength (nm),Absorbance (AU),Reference Signal (unitless),Sample Signal (unitless)
900.723,0.344666,64701,29258
905.903,0.269040,80807,43492
909.784,0.221498,90252,54195
913.66,0.191406,98832,63605
917.533,0.177301,108214,71942
921.401,0.181029,120081,79149
925.265,0.185495,134618,87823
929.125,0.190023,152080,98186
932.981,0.192710,171754,110204
936.833,0.188729,192235,124481
941.962,0.173723,218303,146331
945.804,0.162866,236285,162394
949.642,0.151437,252581,178223
953.475,0.141764,268843,193970
957.305,0.134348,284409,208735
961.131,0.130493,300415,222448
964.952,0.127482,315812,235476
968.769,0.125039,331706,248722
972.582,0.123196,347597,261746
976.391,0.121104,362603,274364
981.464,0.119946,381663,289557
985.263,0.116923,394207,301163
989.058,0.115320,405268,310758
992.849,0.113301,414919,319641
996.636,0.110917,422744,327462
1000.42,0.107766,429985,335496
1004.2,0.105867,435731,341469
1007.97,0.104057,439787,346087
1011.74,0.101674,442999,350533
1016.76,0.099589,446147,354723
1020.52,0.097847,447570,357284
1024.28,0.097036,448137,358406
1028.03,0.095230,447447,359345
1031.78,0.094385,447066,359738
1035.53,0.093048,446139,360099
1039.27,0.092337,445335,360039
1043,0.090684,443993,360323
1046.73,0.089918,441985,359327
1050.46,0.089198,439703,358065
1055.43,0.088853,438747,357570
1059.14,0.088992,437920,356782
1062.86,0.088895,436828,355972
1066.57,0.089708,436218,354810
1070.27,0.090044,437019,355186
1073.98,0.089971,437923,355981
1077.67,0.089830,438436,356514
1081.37,0.090664,439593,356769
1085.06,0.090723,441201,358025
1089.97,0.090258,442941,359822
1093.65,0.090747,445537,361524
1097.32,0.090056,448116,364195
1100.99,0.090458,449422,364919
1104.66,0.090037,451109,366644
1108.32,0.090144,453992,368896
1111.98,0.089991,457203,371636
1115.64,0.089818,459746,373852
1119.29,0.089670,461686,375558
1124.15,0.089323,463762,377548
1127.79,0.089381,465594,378989
1131.43,0.089769,467340,380070
1135.06,0.090482,468769,380607
1138.69,0.091791,470277,380682
1142.31,0.094357,471885,379734
1145.93,0.096292,474025,379760
1149.55,0.099014,475849,378839
1153.16,0.102523,477793,377326
1156.77,0.105867,479500,375770
1161.58,0.110933,482364,373630
1165.17,0.114840,485131,372408
1168.77,0.118704,488511,371681
1172.36,0.122772,491250,370280
1175.94,0.126069,494537,369939
1179.53,0.129152,498615,370351
1183.1,0.132235,504468,372048
1186.68,0.136502,510422,372758
1190.25,0.141147,516637,373283
1195,0.147147,526142,374935
1198.56,0.150966,533671,376971
1202.11,0.154840,540939,378711
1205.67,0.157894,548916,381603
1209.21,0.161168,558110,385081
1212.76,0.163476,566953,389109
1216.3,0.164732,575650,393937
1219.83,0.164273,584869,400669
1223.36,0.161844,595021,409910
1226.89,0.157497,604954,420945
1231.58,0.149760,617050,437079
1235.1,0.143988,626559,449753
1238.61,0.139077,636932,462398
1242.12,0.134572,647247,474786
1245.63,0.130799,655372,484941
1249.13,0.127945,664642,495043
1252.63,0.125087,674555,505743
1256.12,0.123210,684692,515567
1259.61,0.121026,692978,524437
1264.25,0.119917,706063,535706
1267.73,0.118551,716021,544973
1271.2,0.117561,725552,553487
1274.67,0.116179,734127,561813
1278.14,0.114867,742906,570252
1281.6,0.113838,750480,577432
1285.06,0.112718,757621,584432
1288.51,0.111743,764167,590807
1291.96,0.110800,771928,598104
1296.56,0.109383,779372,605846
1300,0.108839,783046,609464
1303.43,0.107850,787236,614123
1306.86,0.107266,792393,618977
1310.29,0.106748,796376,622831
1313.72,0.106702,798307,624407
1317.13,0.106555,801175,626862
1320.55,0.106762,804861,629447
1323.96,0.106532,807833,632106
1327.37,0.107287,809608,632394
1331.9,0.109088,811327,631114
1335.3,0.110048,812775,630844
1338.69,0.111061,813544,629970
1342.08,0.112716,812602,626847
1345.47,0.115082,811826,622846
1348.85,0.117094,811585,619784
1352.23,0.119077,810158,615875
1355.6,0.121188,807876,611162
1358.97,0.123880,805252,605413
1363.45,0.128984,804229,597580
1366.81,0.132005,803029,592552
1370.17,0.135529,801212,586433
1373.52,0.139156,799981,580662
1376.86,0.143077,798624,574467
1380.2,0.146465,795747,567950
1383.54,0.150097,792504,560925
1386.88,0.153769,790222,554600
1390.21,0.159567,788607,546127
1393.53,0.165232,785518,536938
1397.96,0.173012,779920,523646
1401.28,0.179130,776342,513953
1404.59,0.186516,773563,503477
1407.9,0.194453,769684,491880
1411.2,0.203345,765635,479376
1414.5,0.213601,762767,466435
1417.8,0.224550,760810,453656
1421.09,0.235511,758503,441008
1424.37,0.245931,755935,429095
1428.75,0.259793,753840,414463
1432.03,0.269266,752941,405037
1435.3,0.277766,751451,396401
1438.57,0.284415,750582,389927
1441.84,0.290592,749740,383989
1445.1,0.295483,748245,378932
1448.35,0.300256,747231,374282
1451.61,0.303389,746115,371037
1454.85,0.305474,743794,368111
1459.18,0.308039,741747,364936
1462.42,0.308491,739561,363482
1465.65,0.309830,736862,361041
1468.88,0.310308,734038,359261
1472.11,0.310549,730885,357520
1475.33,0.310693,727271,355634
1478.55,0.310470,723938,354186
1481.77,0.309547,721040,353519
1484.98,0.309465,717684,351940
1488.18,0.308250,713601,350918
1492.45,0.307261,708541,349224
1495.65,0.305781,704632,348483
1498.84,0.304324,700712,347709
1502.03,0.302381,695967,346903
1505.21,0.301016,691038,345530
1508.39,0.299742,686052,344045
1511.57,0.297763,680877,343009
1514.74,0.296081,675427,341584
1517.91,0.294357,670152,340264
1522.12,0.291208,662097,338621
1525.28,0.290196,656403,336492
1528.43,0.288122,650810,335222
1531.58,0.287021,644842,332991
1534.73,0.285101,638224,331034
1537.87,0.284230,631155,328024
1541.01,0.282225,625001,326329
1544.14,0.280173,618097,324253
1547.27,0.279285,610689,321022
1550.39,0.277772,602954,318062
1554.55,0.276785,592300,313153
1557.67,0.275851,584592,309743
1560.78,0.273828,576368,306812
1563.89,0.272305,568025,303433
1566.99,0.271200,559352,299561
1570.09,0.270578,550305,295138
1573.18,0.270241,541598,290694
1576.27,0.269565,532727,286378
1579.36,0.268891,523890,282065
1583.47,0.267071,510646,276089
1586.54,0.265366,501212,272054
1589.62,0.264531,492392,267781
1592.68,0.263711,482586,262944
1595.75,0.261923,472996,258782
1598.81,0.261141,462978,253758
1601.86,0.259259,453381,249577
1604.92,0.257085,443779,245517
1607.96,0.254243,433789,241566
1612.02,0.252044,420216,235195
1615.06,0.250450,409971,230305
1618.09,0.248646,400631,225995
1621.12,0.246587,390490,221321
1624.15,0.245491,380379,216135
1627.17,0.242402,370204,211855
1630.19,0.241093,360433,206886
1633.2,0.238795,350418,202205
1636.21,0.237713,340597,197028
1639.21,0.237525,330782,191433
1643.21,0.236497,317788,184349
1646.21,0.234900,307687,179147
1649.2,0.232451,297078,173948
1652.19,0.229618,287199,169264
1655.17,0.227579,276866,163942
1658.15,0.224644,265166,158079
1661.12,0.222225,252362,151286
1664.1,0.218809,238503,144107
1667.06,0.210684,222332,136873
1671.01,0.198225,197141,124897
1673.97,0.184668,175847,114939
1676.92,0.169174,154167,104428
1679.87,0.154413,132946,93167
1682.81,0.142487,113053,81432
1685.75,0.138013,95698,69645
1688.69,0.136027,80645,58959
1691.62,0.140720,68011,49188
1694.55,0.147847,57785,41112
1697.47,0.156261,49231,34354
1701.36,0.168795,40194,27250