Folder: Projects/WIPRO Turbo Internship/Datasets/Spices

File: ChillyPowderColumn 1_064085_20160418_164722.csv
Method:,Column 1,,
Host Date-Time:,18/4/16 @ 16:47:22,,
Header Version:,1,,
System Temp hundredths:,3261,,
Detector Temp hundredths:,3022,,
Humidity hundredths:,1340,,
Lamp PD:,3771,,
Shift Vector Coefficients:,-4.47974,0.0448891,-0.000109265,,
Pixel to Wavelength Coefficients:,1792.1,-0.928226,-0.000229463,,
Serial Number:,5490239,,
Scan Config Name:,Column 1,,
Scan Config Type:,2,,
Start wavelength in nm:,900,,
End wavelength in nm:,1700,,
Pattern Pixel Width:,6,,
Number of Measurement points:,228,,
Num Repeats:,6,,
PGA Gain:,64,,
Total Measurement Time (s):,2,,
Wavelength (nm),Absorbance (AU),Reference Signal (unitless),Sample Signal (unitless)
900.723,0.354727,64701,28588
905.903,0.278937,80807,42512
909.784,0.225814,90252,53659
913.66,0.199581,98832,62419
917.533,0.187668,108214,70245
921.401,0.189243,120081,77666
925.265,0.192368,134618,86444
929.125,0.201106,152080,95712
932.981,0.200391,171754,108272
936.833,0.194291,192235,122897
941.962,0.180351,218303,144115
945.804,0.168828,236285,160180
949.642,0.156560,252581,176133
953.475,0.148213,268843,191111
957.305,0.140916,284409,205602
961.131,0.135672,300415,219811
964.952,0.132823,315812,232598
968.769,0.130226,331706,245769
972.582,0.127967,347597,258886
976.391,0.126885,362603,270736
981.464,0.124069,381663,286821
985.263,0.122245,394207,297495
989.058,0.119647,405268,307677
992.849,0.117478,414919,316581
996.636,0.115025,422744,324379
1000.42,0.113200,429985,331324
1004.2,0.110513,435731,337836
1007.97,0.108641,439787,342453
1011.74,0.106424,442999,346720
1016.76,0.104158,446147,351010
1020.52,0.103148,447570,352950
1024.28,0.101817,448137,354482
1028.03,0.100237,447447,355226
1031.78,0.099141,447066,355820
1035.53,0.097670,446139,356287
1039.27,0.097045,445335,356157
1043,0.096212,443993,355766
1046.73,0.095578,441985,354674
1050.46,0.094340,439703,353850
1055.43,0.094048,438747,353318
1059.14,0.093431,437920,353154
1062.86,0.094243,436828,351615
1066.57,0.094113,436218,351229
1070.27,0.094657,437019,351434
1073.98,0.094766,437923,352072
1077.67,0.094374,438436,352803
1081.37,0.094392,439593,353719
1085.06,0.095430,441201,354166
1089.97,0.095119,442941,355817
1093.65,0.094398,445537,358497
1097.32,0.094596,448116,360408
1100.99,0.094353,449422,361661
1104.66,0.093747,451109,363525
1108.32,0.093966,453992,365664
1111.98,0.093827,457203,368368
1115.64,0.093186,459746,370964
1119.29,0.093702,461686,372087
1124.15,0.092800,463762,374537
1127.79,0.093384,465594,375512
1131.43,0.093973,467340,376409
1135.06,0.094209,468769,377355
1138.69,0.096196,470277,376841
1142.31,0.098331,471885,376275
1145.93,0.100056,474025,376483
1149.55,0.102708,475849,375631
1153.16,0.106188,477793,374155
1156.77,0.109519,479500,372623
1161.58,0.114441,482364,370624
1165.17,0.117438,485131,370187
1168.77,0.122139,488511,368753
1172.36,0.125314,491250,368119
1175.94,0.128829,494537,367595
1179.53,0.131598,498615,368271
1183.1,0.134422,504468,370179
1186.68,0.138649,510422,370920
1190.25,0.143662,516637,371128
1195,0.149818,526142,372636
1198.56,0.153303,533671,374948
1202.11,0.156387,540939,377365
1205.67,0.160460,548916,379355
1209.21,0.163592,558110,382937
1212.76,0.165908,566953,386936
1216.3,0.167845,575650,391123
1219.83,0.166873,584869,398277
1223.36,0.164771,595021,407156
1226.89,0.160588,604954,417960
1231.58,0.153010,617050,433821
1235.1,0.147572,626559,446057
1238.61,0.142695,636932,458562
1242.12,0.138623,647247,470378
1245.63,0.134331,655372,481013
1249.13,0.131474,664642,491036
1252.63,0.129018,674555,501187
1256.12,0.126858,684692,511255
1259.61,0.124945,692978,519726
1264.25,0.124439,706063,530157
1267.73,0.123093,716021,539303
1271.2,0.122411,725552,547341
1274.67,0.120942,734127,555686
1278.14,0.120170,742906,563331
1281.6,0.118639,750480,571084
1285.06,0.117296,757621,578304
1288.51,0.116694,764167,584109
1291.96,0.115893,771928,591131
1296.56,0.114335,779372,598977
1300,0.113783,783046,602566
1303.43,0.113053,787236,606809
1306.86,0.112532,792393,611517
1310.29,0.111805,796376,615620
1313.72,0.111477,798307,617580
1317.13,0.111781,801175,619365
1320.55,0.111641,804861,622415
1323.96,0.111592,807833,624784
1327.37,0.112331,809608,625092
1331.9,0.113512,811327,624718
1335.3,0.114654,812775,624189
1338.69,0.115530,813544,623521
1342.08,0.116825,812602,620944
1345.47,0.118763,811826,617590
1348.85,0.120993,811585,614244
1352.23,0.122797,810158,610623
1355.6,0.124646,807876,606315
1358.97,0.127322,805252,600634
1363.45,0.131868,804229,593624
1366.81,0.134934,803029,588569
1370.17,0.138455,801212,582495
1373.52,0.141440,799981,577616
1376.86,0.145178,798624,571695
1380.2,0.148612,795747,565149
1383.54,0.152219,792504,558190
1386.88,0.155812,790222,551997
1390.21,0.162027,788607,543042
1393.53,0.168120,785518,533379
1397.96,0.175913,779920,520160
1401.28,0.181431,776342,511237
1404.59,0.188928,773563,500689
1407.9,0.196811,769684,489217
1411.2,0.205904,765635,476560
1414.5,0.215686,762767,464201
1417.8,0.226658,760810,451459
1421.09,0.237336,758503,439159
1424.37,0.248147,755935,426911
1428.75,0.262096,753840,412271
1432.03,0.271123,752941,403309
1435.3,0.279918,751451,394442
1438.57,0.286434,750582,388118
1441.84,0.293474,749740,381449
1445.1,0.299020,748245,375858
1448.35,0.303056,747231,371877
1451.61,0.305439,746115,369289
1454.85,0.307366,743794,366511
1459.18,0.310480,741747,362891
1462.42,0.312057,739561,360510
1465.65,0.312654,736862,358701
1468.88,0.312570,734038,357395
1472.11,0.312583,730885,355849
1475.33,0.313393,727271,353430
1478.55,0.313586,723938,351654
1481.77,0.313098,721040,350640
1484.98,0.311979,717684,349908
1488.18,0.311574,713601,348242
1492.45,0.309409,708541,347501
1495.65,0.308545,704632,346272
1498.84,0.308306,700712,344535
1502.03,0.306055,695967,343980
1505.21,0.304469,691038,342794
1508.39,0.302162,686052,342133
1511.57,0.300893,680877,340546
1514.74,0.299556,675427,338862
1517.91,0.298309,670152,337182
1522.12,0.295019,662097,335662
1525.28,0.293278,656403,334112
1528.43,0.291502,650810,332623
1531.58,0.290044,644842,330681
1534.73,0.289385,638224,327784
1537.87,0.287661,631155,325443
1541.01,0.286619,625001,323044
1544.14,0.284790,618097,320824
1547.27,0.283464,610689,317948
1550.39,0.282448,602954,314656
1554.55,0.281345,592300,309882
1557.67,0.280502,584592,306444
1560.78,0.278222,576368,303723
1563.89,0.277032,568025,300148
1566.99,0.274962,559352,296977
1570.09,0.274651,550305,292383
1573.18,0.274573,541598,287809
1576.27,0.274530,532727,283123
1579.36,0.273413,523890,279143
1583.47,0.270441,510646,273955
1586.54,0.269310,501212,269595
1589.62,0.268520,492392,265333
1592.68,0.267999,482586,260361
1595.75,0.266945,472996,255807
1598.81,0.265342,462978,251315
1601.86,0.263206,453381,247319
1604.92,0.260893,443779,243374
1607.96,0.257511,433789,239755
1612.02,0.255664,420216,233243
1615.06,0.254544,409971,228144
1618.09,0.253180,400631,223648
1621.12,0.252200,390490,218479
1624.15,0.248897,380379,214447
1627.17,0.245788,370204,210210
1630.19,0.244558,360433,205242
1633.2,0.243624,350418,199969
1636.21,0.243837,340597,194269
1639.21,0.241885,330782,189521
1643.21,0.239532,317788,183065
1646.21,0.238028,307687,177861
1649.2,0.236084,297078,172499
1652.19,0.232985,287199,167957
1655.17,0.232093,276866,162247
1658.15,0.231491,265166,155606
1661.12,0.226605,252362,149768
1664.1,0.220460,238503,143560
1667.06,0.214105,222332,135799
1671.01,0.198082,197141,124938
1673.97,0.184864,175847,114887
1676.92,0.170215,154167,104178
1679.87,0.155739,132946,92883
1682.81,0.146032,113053,80770
1685.75,0.138631,95698,69546
1688.69,0.138354,80645,58644
1691.62,0.142410,68011,48997
1694.55,0.148788,57785,41023
1697.47,0.158263,49231,34196
1701.36,0.180473,40194,26527

File: ChillyPowderColumn 1_064086_20160418_164726.csv
Method:,Column 1,,
Host Date-Time:,18/4/16 @ 16:47:26,,
Header Version:,1,,
System Temp hundredths:,3263,,
Detector Temp hundredths:,3030,,
Humidity hundredths:,1341,,
Lamp PD:,3767,,
Shift Vector Coefficients:,-4.47974,0.0448891,-0.000109265,,
Pixel to Wavelength Coefficients:,1792.1,-0.928226,-0.000229463,,
Serial Number:,5490239,,
Scan Config Name:,Column 1,,
Scan Config Type:,2,,
Start wavelength in nm:,900,,
End wavelength in nm:,1700,,
Pattern Pixel Width:,6,,
Number of Measurement points:,228,,
Num Repeats:,6,,
PGA Gain:,64,,
Total Measurement Time (s):,2,,
Wavelength (nm),Absorbance (AU),Reference Signal (unitless),Sample Signal (unitless)
900.723,0.352032,64701,28766
905.903,0.270801,80807,43316
909.784,0.225766,90252,53665
913.66,0.194222,98832,63194
917.533,0.184078,108214,70828
921.401,0.184903,120081,78446
925.265,0.191565,134618,86604
929.125,0.197810,152080,96441
932.981,0.197596,171754,108971
936.833,0.191364,192235,123728
941.962,0.178141,218303,144850
945.804,0.166570,236285,161015
949.642,0.154742,252581,176872
953.475,0.145456,268843,192328
957.305,0.138964,284409,206528
961.131,0.134731,300415,220288
964.952,0.131927,315812,233078
968.769,0.128160,331706,246941
972.582,0.126904,347597,259521
976.391,0.125526,362603,271585
981.464,0.122487,381663,287868
985.263,0.120707,394207,298550
989.058,0.118718,405268,308336
992.849,0.116333,414919,317417
996.636,0.114256,422744,324954
1000.42,0.111750,429985,332432
1004.2,0.110312,435731,337992
1007.97,0.107158,439787,343625
1011.74,0.105039,442999,347827
1016.76,0.103017,446147,351934
1020.52,0.101495,447570,354296
1024.28,0.100404,448137,355637
1028.03,0.099214,447447,356064
1031.78,0.098485,447066,356358
1035.53,0.096504,446139,357245
1039.27,0.095858,445335,357132
1043,0.094753,443993,356963
1046.73,0.093775,441985,356150
1050.46,0.092638,439703,355240
1055.43,0.092705,438747,354413
1059.14,0.093018,437920,353490
1062.86,0.093138,436828,352511
1066.57,0.093125,436218,352029
1070.27,0.093108,437019,352689
1073.98,0.094404,437923,352366
1077.67,0.093506,438436,353509
1081.37,0.094455,439593,353668
1085.06,0.094428,441201,354984
1089.97,0.093945,442941,356780
1093.65,0.093586,445537,359168
1097.32,0.094052,448116,360860
1100.99,0.093735,449422,362176
1104.66,0.093068,451109,364094
1108.32,0.093441,453992,366106
1111.98,0.092585,457203,369423
1115.64,0.092557,459746,371502
1119.29,0.092842,461686,372825
1124.15,0.092600,463762,374710
1127.79,0.092394,465594,376369
1131.43,0.093483,467340,376834
1135.06,0.093518,468769,377956
1138.69,0.094838,470277,378021
1142.31,0.097408,471885,377075
1145.93,0.099609,474025,376871
1149.55,0.102136,475849,376126
1153.16,0.105381,477793,374851
1156.77,0.108749,479500,373284
1161.58,0.113258,482364,371635
1165.17,0.117793,485131,369884
1168.77,0.121731,488511,369099
1172.36,0.125418,491250,368031
1175.94,0.128176,494537,368148
1179.53,0.131010,498615,368770
1183.1,0.134199,504468,370369
1186.68,0.138737,510422,370845
1190.25,0.142559,516637,372072
1195,0.148719,526142,373580
1198.56,0.152604,533671,375552
1202.11,0.156930,540939,376893
1205.67,0.159515,548916,380181
1209.21,0.163252,558110,383237
1212.76,0.165618,566953,387194
1216.3,0.167060,575650,391831
1219.83,0.166577,584869,398549
1223.36,0.163891,595021,407982
1226.89,0.159390,604954,419114
1231.58,0.152317,617050,434514
1235.1,0.146299,626559,447366
1238.61,0.140734,636932,460637
1242.12,0.137036,647247,472100
1245.63,0.132952,655372,482543
1249.13,0.129920,664642,492797
1252.63,0.127244,674555,503238
1256.12,0.125308,684692,513082
1259.61,0.123071,692978,521973
1264.25,0.121380,706063,533904
1267.73,0.121382,716021,541432
1271.2,0.120057,725552,550315
1274.67,0.118246,734127,559146
1278.14,0.117309,742906,567055
1281.6,0.116039,750480,574513
1285.06,0.115102,757621,581232
1288.51,0.113666,764167,588196
1291.96,0.113283,771928,594695
1296.56,0.112408,779372,601640
1300,0.111165,783046,606209
1303.43,0.110591,787236,610258
1306.86,0.110019,792393,615066
1310.29,0.109984,796376,618208
1313.72,0.109492,798307,620409
1317.13,0.109548,801175,622558
1320.55,0.109578,804861,625378
1323.96,0.110286,807833,626665
1327.37,0.110344,809608,627958
1331.9,0.111870,811327,627084
1335.3,0.113227,812775,626244
1338.69,0.114791,813544,624583
1342.08,0.115867,812602,622316
1345.47,0.117374,811826,619568
1348.85,0.119922,811585,615761
1352.23,0.122148,810158,611536
1355.6,0.124171,807876,606979
1358.97,0.126436,805252,601861
1363.45,0.131093,804229,594684
1366.81,0.134645,803029,588961
1370.17,0.137892,801212,583251
1373.52,0.141250,799981,577869
1376.86,0.144498,798624,572591
1380.2,0.148426,795747,565391
1383.54,0.152262,792504,558135
1386.88,0.156193,790222,551513
1390.21,0.161398,788607,543829
1393.53,0.167458,785518,534193
1397.96,0.176021,779920,520031
1401.28,0.182189,776342,510345
1404.59,0.189204,773563,500370
1407.9,0.197152,769684,488833
1411.2,0.206145,765635,476296
1414.5,0.216916,762767,462888
1417.8,0.228037,760810,450028
1421.09,0.237900,758503,438589
1424.37,0.248713,755935,426355
1428.75,0.262949,753840,411462
1432.03,0.272762,752941,401790
1435.3,0.280657,751451,393771
1438.57,0.287807,750582,386893
1441.84,0.293969,749740,381015
1445.1,0.299592,748245,375363
1448.35,0.303853,747231,371195
1451.61,0.306481,746115,368404
1454.85,0.307966,743794,366005
1459.18,0.310778,741747,362642
1462.42,0.312778,739561,359912
1465.65,0.313629,736862,357896
1468.88,0.313240,734038,356844
1472.11,0.313053,730885,355464
1475.33,0.313109,727271,353661
1478.55,0.313178,723938,351984
1481.77,0.312853,721040,350838
1484.98,0.312665,717684,349356
1488.18,0.311195,713601,348546
1492.45,0.308775,708541,348009
1495.65,0.308194,704632,346552
1498.84,0.308130,700712,344675
1502.03,0.306121,695967,343928
1505.21,0.303643,691038,343446
1508.39,0.301573,686052,342597
1511.57,0.299720,680877,341467
1514.74,0.298105,675427,339996
1517.91,0.297298,670152,337968
1522.12,0.294554,662097,336022
1525.28,0.292102,656403,335018
1528.43,0.289908,650810,333846
1531.58,0.288547,644842,331823
1534.73,0.287384,638224,329298
1537.87,0.286853,631155,326049
1541.01,0.285028,625001,324230
1544.14,0.283035,618097,322123
1547.27,0.280397,610689,320201
1550.39,0.279780,602954,316595
1554.55,0.278565,592300,311872
1557.67,0.278299,584592,308002
1560.78,0.277141,576368,304480
1563.89,0.275530,568025,301188
1566.99,0.273396,559352,298050
1570.09,0.272277,550305,293986
1573.18,0.272728,541598,289034
1576.27,0.272748,532727,284287
1579.36,0.272537,523890,279707
1583.47,0.270393,510646,273985
1586.54,0.268651,501212,270004
1589.62,0.267658,492392,265860
1592.68,0.265978,482586,261575
1595.75,0.265923,472996,256410
1598.81,0.264744,462978,251661
1601.86,0.263260,453381,247288
1604.92,0.260058,443779,243842
1607.96,0.257484,433789,239770
1612.02,0.254998,420216,233601
1615.06,0.253985,409971,228438
1618.09,0.254496,400631,222971
1621.12,0.252119,390490,218520
1624.15,0.250048,380379,213879
1627.17,0.247462,370204,209401
1630.19,0.245310,360433,204887
1633.2,0.244008,350418,199792
1636.21,0.243770,340597,194299
1639.21,0.243517,330782,188810
1643.21,0.243148,317788,181547
1646.21,0.241773,307687,176334
1649.2,0.237976,297078,171749
1652.19,0.233647,287199,167701
1655.17,0.232489,276866,162099
1658.15,0.230666,265166,155902
1661.12,0.228305,252362,149183
1664.1,0.224781,238503,142139
1667.06,0.220114,222332,133933
1671.01,0.203064,197141,123513
1673.97,0.188047,175847,114048
1676.92,0.170966,154167,103998
1679.87,0.160653,132946,91838
1682.81,0.147988,113053,80407
1685.75,0.144009,95698,68690
1688.69,0.141834,80645,58176
1691.62,0.147752,68011,48398
1694.55,0.153685,57785,40563
1697.47,0.160900,49231,33989
1701.36,0.177796,40194,26691

File: ChillyPowderColumn 1_064087_20160418_164730.csv
Method:,Column 1,,
Host Date-Time:,18/4/16 @ 16:47:30,,
Header Version:,1,,
System Temp hundredths:,3264,,
Detector Temp hundredths:,3040,,
Humidity hundredths:,1341,,
Lamp PD:,3768,,
Shift Vector Coefficients:,-4.47974,0.0448891,-0.000109265,,
Pixel to Wavelength Coefficients:,1792.1,-0.928226,-0.000229463,,
Serial Number:,5490239,,
Scan Config Name:,Column 1,,
Scan Config Type:,2,,
Start wavelength in nm:,900,,
End wavelength in nm:,1700,,
Pattern Pixel Width:,6,,
Number of Measurement points:,228,,
Num Repeats:,6,,
PGA Gain:,64,,
Total Measurement Time (s):,2,,
Wavelength (nm),Absorbance (AU),Reference Signal (unitless),Sample Signal (unitless)
900.723,0.347884,64701,29042
905.903,0.270630,80807,43333
909.784,0.227046,90252,53507
913.66,0.191844,98832,63541
917.533,0.181840,108214,71194
921.401,0.184245,120081,78565
925.265,0.188442,134618,87229
929.125,0.194893,152080,97091
932.981,0.195941,171754,109387
936.833,0.191659,192235,123644
941.962,0.176842,218303,145284
945.804,0.164903,236285,161634
949.642,0.152603,252581,177745
953.475,0.144644,268843,192688
957.305,0.137246,284409,207347
961.131,0.132487,300415,221429
964.952,0.129794,315812,234226
968.769,0.127505,331706,247314
972.582,0.125921,347597,260109
976.391,0.123866,362603,272625
981.464,0.121716,381663,288379
985.263,0.119770,394207,299195
989.058,0.117832,405268,308966
992.849,0.115241,414919,318216
996.636,0.113128,422744,325799
1000.42,0.110724,429985,333219
1004.2,0.108686,435731,339260
1007.97,0.106438,439787,344195
1011.74,0.104342,442999,348386
1016.76,0.102472,446147,352376
1020.52,0.100726,447570,354924
1024.28,0.099583,448137,356310
1028.03,0.097952,447447,357100
1031.78,0.096867,447066,357688
1035.53,0.095961,446139,357692
1039.27,0.094983,445335,357852
1043,0.093715,443993,357817
1046.73,0.092896,441985,356871
1050.46,0.091790,439703,355934
1055.43,0.091675,438747,355254
1059.14,0.091471,437920,354751
1062.86,0.091526,436828,353822
1066.57,0.092310,436218,352690
1070.27,0.092149,437019,353469
1073.98,0.092673,437923,353773
1077.67,0.092411,438436,354401
1081.37,0.092995,439593,354859
1085.06,0.093498,441201,355745
1089.97,0.092776,442941,357742
1093.65,0.092634,445537,359956
1097.32,0.092936,448116,361788
1100.99,0.092029,449422,363601
1104.66,0.091689,451109,365252
1108.32,0.091685,453992,367590
1111.98,0.091376,457203,370453
1115.64,0.091233,459746,372636
1119.29,0.091546,461686,373939
1124.15,0.091096,463762,376010
1127.79,0.091384,465594,377245
1131.43,0.091585,467340,378484
1135.06,0.091914,468769,379354
1138.69,0.093631,470277,379073
1142.31,0.095721,471885,378543
1145.93,0.097867,474025,378385
1149.55,0.100757,475849,377322
1153.16,0.103625,477793,376370
1156.77,0.106975,479500,374812
1161.58,0.111608,482364,373050
1165.17,0.115776,485131,371606
1168.77,0.119796,488511,370748
1172.36,0.123572,491250,369599
1175.94,0.126941,494537,369197
1179.53,0.129130,498615,370370
1183.1,0.133017,504468,371378
1186.68,0.137035,510422,372301
1190.25,0.141138,516637,373291
1195,0.147517,526142,374616
1198.56,0.151570,533671,376447
1202.11,0.155095,540939,378489
1205.67,0.158380,548916,381176
1209.21,0.162657,558110,383763
1212.76,0.164398,566953,388284
1216.3,0.165704,575650,393056
1219.83,0.165107,584869,399900
1223.36,0.162508,595021,409284
1226.89,0.158073,604954,420387
1231.58,0.150906,617050,435928
1235.1,0.145596,626559,448091
1238.61,0.140047,636932,461367
1242.12,0.136099,647247,473120
1245.63,0.132101,655372,483489
1249.13,0.128783,664642,494089
1252.63,0.126448,674555,504161
1256.12,0.124508,684692,514028
1259.61,0.122322,692978,522874
1264.25,0.121196,706063,534131
1267.73,0.120516,716021,542512
1271.2,0.119424,725552,551118
1274.67,0.117847,734127,559660
1278.14,0.116565,742906,568027
1281.6,0.115790,750480,574843
1285.06,0.114622,757621,581875
1288.51,0.113420,764167,588529
1291.96,0.112475,771928,595802
1296.56,0.111526,779372,602863
1300,0.110715,783046,606838
1303.43,0.109391,787236,611947
1306.86,0.109387,792393,615961
1310.29,0.109083,796376,619491
1313.72,0.108837,798307,621345
1317.13,0.108582,801175,623944
1320.55,0.108736,804861,626592
1323.96,0.109402,807833,627942
1327.37,0.109643,809608,628972
1331.9,0.110812,811327,628614
1335.3,0.112390,812775,627452
1338.69,0.113850,813544,625938
1342.08,0.114778,812602,623879
1345.47,0.116500,811826,620816
1348.85,0.118993,811585,617079
1352.23,0.121257,810158,612791
1355.6,0.123423,807876,608026
1358.97,0.125766,805252,602789
1363.45,0.130379,804229,595663
1366.81,0.133803,803029,590103
1370.17,0.137451,801212,583843
1373.52,0.140723,799981,578571
1376.86,0.143971,798624,573286
1380.2,0.147515,795747,566578
1383.54,0.151855,792504,558658
1386.88,0.156085,790222,551651
1390.21,0.161322,788607,543924
1393.53,0.167357,785518,534317
1397.96,0.176081,779920,519959
1401.28,0.181999,776342,510568
1404.59,0.188937,773563,500678
1407.9,0.196638,769684,489412
1411.2,0.206076,765635,476372
1414.5,0.216702,762767,463116
1417.8,0.227732,760810,450344
1421.09,0.237967,758503,438521
1424.37,0.248266,755935,426794
1428.75,0.262575,753840,411817
1432.03,0.272380,752941,402143
1435.3,0.280107,751451,394270
1438.57,0.286908,750582,387695
1441.84,0.292706,749740,382124
1445.1,0.298558,748245,376258
1448.35,0.302661,747231,372215
1451.61,0.305952,746115,368853
1454.85,0.307105,743794,366731
1459.18,0.309436,741747,363764
1462.42,0.311615,739561,360877
1465.65,0.311945,736862,359287
1468.88,0.311876,734038,357967
1472.11,0.311362,730885,356851
1475.33,0.310540,727271,355759
1478.55,0.311494,723938,353352
1481.77,0.311528,721040,351910
1484.98,0.310819,717684,350844
1488.18,0.309148,713601,350193
1492.45,0.307043,708541,349399
1495.65,0.305878,704632,348405
1498.84,0.305407,700712,346843
1502.03,0.304148,695967,345494
1505.21,0.302038,691038,344718
1508.39,0.299703,686052,344076
1511.57,0.298117,680877,342730
1514.74,0.296412,675427,341324
1517.91,0.295775,670152,339155
1522.12,0.293332,662097,336969
1525.28,0.290799,656403,336025
1528.43,0.288291,650810,335091
1531.58,0.286518,644842,333377
1534.73,0.286072,638224,330294
1537.87,0.285311,631155,327209
1541.01,0.284324,625001,324756
1544.14,0.282011,618097,322883
1547.27,0.280263,610689,320300
1550.39,0.278636,602954,317430
1554.55,0.276774,592300,313161
1557.67,0.276975,584592,308943
1560.78,0.276335,576368,305046
1563.89,0.274559,568025,301862
1566.99,0.272595,559352,298600
1570.09,0.271315,550305,294638
1573.18,0.271429,541598,289900
1576.27,0.271352,532727,285202
1579.36,0.271326,523890,280488
1583.47,0.269288,510646,274683
1586.54,0.267070,501212,270989
1589.62,0.265779,492392,267013
1592.68,0.264819,482586,262274
1595.75,0.263942,472996,257582
1598.81,0.263944,462978,252125
1601.86,0.263108,453381,247375
1604.92,0.259750,443779,244015
1607.96,0.256527,433789,240299
1612.02,0.254041,420216,234116
1615.06,0.253045,409971,228933
1618.09,0.251619,400631,224453
1621.12,0.251198,390490,218984
1624.15,0.249430,380379,214184
1627.17,0.246214,370204,210004
1630.19,0.243027,360433,205967
1633.2,0.242217,350418,200618
1636.21,0.241147,340597,195476
1639.21,0.241832,330782,189544
1643.21,0.240775,317788,182542
1646.21,0.238190,307687,177795
1649.2,0.236593,297078,172297
1652.19,0.233202,287199,167873
1655.17,0.230661,276866,162783
1658.15,0.228843,265166,156558
1661.12,0.227165,252362,149575
1664.1,0.222991,238503,142726
1667.06,0.215342,222332,135413
1671.01,0.199273,197141,124596
1673.97,0.187366,175847,114227
1676.92,0.170286,154167,104161
1679.87,0.155809,132946,92868
1682.81,0.145822,113053,80809
1685.75,0.144737,95698,68575
1688.69,0.142528,80645,58083
1691.62,0.142029,68011,49040
1694.55,0.149869,57785,40921
1697.47,0.159930,49231,34065
1701.36,0.172219,40194,27036